Amplitude Error Setpoint: 0.25(V)
Drive Frequency(kHz), Amplitude Error(V), Phase(º)
268.81 0.025177 145.72
268.82 0.026459 144.75
268.82 0.026093 143.65
268.83 0.026001 142.71
268.83 0.026428 141.59
268.84 0.025879 140.73
268.84 0.025818 139.72
268.85 0.02536 138.63
268.85 0.025208 137.64
268.86 0.024902 136.59
268.87 0.02475 135.65
268.87 0.024078 134.62
268.88 0.023346 133.63
268.88 0.023346 132.63
268.89 0.022797 131.65
268.89 0.021545 130.75
268.9 0.020447 129.77
268.9 0.020081 128.7
268.91 0.019592 127.9
268.91 0.018219 127.05
268.92 0.017395 126.09
268.92 0.016663 125.28
268.93 0.015656 124.36
268.93 0.01355 123.4
268.94 0.013184 122.79
268.94 0.011597 121.86
268.95 0.011017 121.11
268.95 0.0097656 120.16
268.96 0.0073853 119.54
268.97 0.0060425 118.77
268.97 0.0050659 118.07
268.98 0.0042419 117.16
268.98 0.0028381 116.53
268.99 0.0013428 115.77
268.99 0.00064087 115.05
269 -0.0016174 114.32
269 -0.0021667 113.63
269.01 -0.0046997 113.1
269.01 -0.0054016 112.4
269.02 -0.0072937 111.82
269.02 -0.007843 111.06
269.03 -0.0099792 110.62
269.03 -0.011383 110.03
269.04 -0.013336 109.54
269.04 -0.014221 109.08
269.05 -0.014771 108.47
269.05 -0.016998 108.01
269.06 -0.017731 107.4
269.07 -0.018982 106.82
269.07 -0.020203 106.5
269.08 -0.02179 106.04
269.08 -0.022736 105.62
269.09 -0.024139 105.02
269.09 -0.025635 104.8
269.1 -0.02652 104.11
269.1 -0.028168 103.82
269.11 -0.029205 103.44
269.11 -0.03009 103.09
269.12 -0.031494 102.63
269.12 -0.032135 102.4
269.13 -0.033661 102.05
269.13 -0.034851 101.78
269.14 -0.035645 101.42
269.14 -0.035858 101.02
269.15 -0.037994 100.76
269.16 -0.037811 100.46
269.16 -0.039185 100.26
269.17 -0.03949 99.921
269.17 -0.04071 99.734
269.18 -0.040924 99.613
269.18 -0.041992 99.108
269.19 -0.042511 98.97
269.19 -0.043457 98.893
269.2 -0.043701 98.575
269.2 -0.043915 98.196
269.21 -0.044525 98.069
269.21 -0.044556 97.905
269.22 -0.045685 97.921
269.22 -0.046204 97.542
269.23 -0.046875 97.388
269.23 -0.047333 97.169
269.24 -0.047028 97.114
269.24 -0.047333 96.702
269.25 -0.047943 96.619
269.26 -0.048309 96.504
269.26 -0.048584 96.493
269.27 -0.048187 96.235
269.27 -0.048248 96.114
269.28 -0.049042 95.999
269.28 -0.04837 95.735
269.29 -0.04837 95.746
269.29 -0.049011 95.641
269.3 -0.048706 95.504
269.3 -0.048096 95.301
269.31 -0.048187 95.262
269.31 -0.047882 95.054
269.32 -0.047363 94.845
269.32 -0.047455 94.625
269.33 -0.046906 94.587
269.33 -0.046478 94.455
269.34 -0.045959 94.367
269.35 -0.046539 94.109
269.35 -0.045654 93.856
269.36 -0.044769 93.735
269.36 -0.043884 93.719
269.37 -0.043427 93.433
269.37 -0.042877 93.554
269.38 -0.042267 93.192
269.38 -0.041901 93.131
269.39 -0.041626 93.115
269.39 -0.040436 92.884
269.4 -0.040009 92.626
269.4 -0.039276 92.488
269.41 -0.037598 92.346
269.41 -0.03656 92.225
269.42 -0.037384 92.115
269.42 -0.035034 91.752
269.43 -0.034302 91.599
269.43 -0.032837 91.483
269.44 -0.032318 91.324
269.45 -0.03183 90.884
269.45 -0.030182 90.648
269.46 -0.028137 90.599
269.46 -0.027771 90.253
269.47 -0.026917 90.066
269.47 -0.026184 90.049
269.48 -0.024231 89.747
269.48 -0.023407 89.352
269.49 -0.021942 89.341
269.49 -0.02066 89
269.5 -0.019623 88.748
269.5 -0.017212 88.401
269.51 -0.017487 88.171
269.51 -0.015198 87.896
269.52 -0.013733 87.693
269.52 -0.012634 87.231
269.53 -0.010986 87.16
269.54 -0.0091553 86.737
269.54 -0.0087585 86.457
269.55 -0.0068665 86.177
269.55 -0.0050659 85.924
269.56 -0.00354 85.457
269.56 -0.0010681 85.023
269.57 0 84.732
269.57 0.0019836 84.391
269.58 0.0033569 84.15
269.58 0.0054016 83.716
269.59 0.0073547 83.463
269.59 0.0088806 82.93
269.6 0.010498 82.579
269.6 0.013336 82.304
269.61 0.014465 81.826
269.61 0.016968 81.541
269.62 0.018188 81.079
269.62 0.020905 80.706
269.63 0.02182 80.14
269.64 0.023651 79.832
269.64 0.025543 79.31
269.65 0.027527 78.981
269.65 0.03009 78.563
269.66 0.031769 78.041
269.66 0.03418 77.596
269.67 0.03656 77.108
269.67 0.038666 76.685
269.68 0.041321 76.289
269.68 0.042908 75.63
269.69 0.044678 75.163
269.69 0.046722 74.734
269.7 0.049164 74.262
269.7 0.051483 73.652
269.71 0.05368 73.163
269.71 0.056549 72.653
269.72 0.059143 72.246
269.73 0.061249 71.719
269.73 0.06427 71.104
269.74 0.066193 70.598
269.74 0.068176 70.109
269.75 0.070313 69.576
269.75 0.072968 68.879
269.76 0.075287 68.329
269.76 0.077515 67.824
269.77 0.081116 67.291
269.77 0.083252 66.616
269.78 0.085541 66.011
269.78 0.087433 65.407
269.79 0.090759 64.885
269.79 0.092529 64.177
269.8 0.095856 63.611
269.8 0.098389 63.034
269.81 0.10086 62.271
269.81 0.10391 61.606
269.82 0.1066 61.002
269.83 0.10883 60.337
269.83 0.11224 59.661
269.84 0.11487 58.914
269.84 0.11761 58.332
269.85 0.11957 57.662
269.85 0.12299 56.92
269.86 0.1261 56.195
269.86 0.12808 55.388
269.87 0.13153 54.739
269.87 0.13351 54.025
269.88 0.13611 53.355
269.88 0.14014 52.548
269.89 0.14297 51.877
269.89 0.14618 51.026
269.9 0.14804 50.312
269.9 0.15115 49.543
269.91 0.15442 48.686
269.92 0.1575 48.01
269.92 0.16061 47.098
269.93 0.16327 46.296
269.93 0.16577 45.406
269.94 0.16946 44.566
269.94 0.17218 43.808
269.95 0.17465 42.858
269.95 0.17749 42.111
269.96 0.18051 41.199
269.96 0.18311 40.375
269.97 0.18665 39.518
269.97 0.1893 38.408
269.98 0.19141 37.661
269.98 0.19412 36.678
269.99 0.19714 35.695
269.99 0.1998 34.838
270 0.20255 33.843
270 0.20459 32.866
270.01 0.20697 31.932
270.02 0.20938 30.91
270.02 0.21295 30.009
270.03 0.21582 28.911
270.03 0.21695 27.856
270.04 0.22046 26.917
270.04 0.22192 25.889
270.05 0.224 24.928
270.05 0.22604 23.879
270.06 0.22849 22.764
270.06 0.23065 21.676
270.07 0.23251 20.654
270.07 0.23447 19.49
270.08 0.23615 18.463
270.08 0.23761 17.408
270.09 0.23907 16.309
270.09 0.24017 15.106
270.1 0.24167 14.002
270.1 0.24356 12.838
270.11 0.24396 11.7
270.12 0.24545 10.563
270.12 0.24628 9.4427
270.13 0.24677 8.1738
270.13 0.24765 7.1136
270.14 0.24753 5.9656
270.14 0.24786 4.7296
270.15 0.24832 3.5706
270.15 0.24924 2.4994
270.16 0.24893 1.1975
270.16 0.24963 0.082397
270.17 0.24866 -1.1536
270.17 0.24869 -2.2906
270.18 0.24686 -3.6035
270.18 0.24686 -4.7571
270.19 0.24545 -5.9436
270.19 0.24515 -7.1356
270.2 0.24338 -8.3112
270.21 0.24191 -9.5361
270.21 0.24106 -10.756
270.22 0.23923 -11.931
270.22 0.23779 -13.14
270.23 0.23532 -14.282
270.23 0.23386 -15.485
270.24 0.23187 -16.721
270.24 0.22961 -17.836
270.25 0.22696 -19.017
270.25 0.22491 -20.248
270.26 0.22269 -21.379
270.26 0.21915 -22.555
270.27 0.21658 -23.791
270.27 0.21371 -24.791
270.28 0.21082 -26.01
270.28 0.20837 -27.087
270.29 0.20389 -28.279
270.29 0.20151 -29.449
270.3 0.19827 -30.531
270.31 0.19464 -31.547
270.31 0.19168 -32.772
270.32 0.18759 -33.761
270.32 0.18411 -34.893
270.33 0.18097 -35.914
270.33 0.17694 -37.024
270.34 0.17313 -38.106
270.34 0.16901 -39.106
270.35 0.16571 -40.122
270.35 0.16159 -41.232
270.36 0.15707 -42.144
270.36 0.15366 -43.275
270.37 0.14987 -44.165
270.37 0.14597 -45.181
270.38 0.14163 -46.132
270.38 0.13794 -47.06
270.39 0.13367 -48.027
270.4 0.12979 -48.994
270.4 0.12695 -49.982
270.41 0.12219 -50.839
270.41 0.11899 -51.812
270.42 0.11353 -52.729
270.42 0.11111 -53.679
270.43 0.10599 -54.465
270.43 0.10211 -55.327
270.44 0.098114 -56.277
270.44 0.094421 -57.129
270.45 0.090576 -57.876
270.45 0.086914 -58.848
270.46 0.082306 -59.584
270.46 0.0784 -60.491
270.47 0.074249 -61.337
270.47 0.071625 -62.029
270.48 0.067474 -62.875
270.48 0.063171 -63.71
270.49 0.059082 -64.402
270.5 0.055267 -65.215
270.5 0.051819 -65.901
270.51 0.047974 -66.599
270.51 0.044891 -67.407
270.52 0.041077 -68.06
270.52 0.037476 -68.835
270.53 0.034149 -69.538
270.53 0.029968 -70.203
270.54 0.026398 -70.999
270.54 0.023407 -71.642
270.55 0.019257 -72.301
270.55 0.01712 -72.911
270.56 0.012512 -73.526
270.56 0.0097961 -74.301
270.57 0.0065308 -74.877
270.57 0.0027466 -75.542
270.58 -3.0518e-005 -76.064
270.59 -0.0036011 -76.696
270.59 -0.0062256 -77.289
270.6 -0.0098572 -77.877
270.6 -0.012604 -78.53
270.61 -0.015869 -78.959
270.61 -0.018768 -79.607
270.62 -0.021362 -80.222
270.62 -0.02478 -80.695
270.63 -0.028015 -81.26
270.63 -0.030853 -81.771
270.64 -0.033234 -82.326
270.64 -0.03653 -82.815
270.65 -0.039063 -83.441
270.65 -0.042084 -83.842
270.66 -0.044281 -84.359
270.66 -0.047852 -84.919
270.67 -0.049896 -85.199
270.67 -0.052765 -85.984
270.68 -0.054871 -86.221
270.69 -0.058105 -86.77
270.69 -0.060089 -87.116
270.7 -0.062347 -87.501
270.7 -0.065155 -87.803
270.71 -0.068115 -88.231
270.71 -0.070526 -88.671
270.72 -0.072632 -89.022
270.72 -0.074829 -89.654
270.73 -0.077271 -89.874
270.73 -0.078796 -90.203
270.74 -0.081818 -90.56
270.74 -0.083984 -90.901
270.75 -0.086212 -91.285
270.75 -0.088043 -91.604
270.76 -0.090393 -91.912
270.76 -0.092041 -92.582
270.77 -0.094757 -92.532
270.78 -0.096771 -92.851
270.78 -0.097931 -93.433
270.79 -0.10056 -93.576
270.79 -0.10226 -93.499
270.8 -0.10428 -93.988
270.8 -0.10641 -94.312
270.81 -0.108 -94.878
270.81 -0.11008 -94.933
270.82 -0.1116 -94.966
270.82 -0.11279 -95.081
270.83 -0.11511 -95.356
270.83 -0.11688 -95.779
270.84 -0.1181 -95.812
270.84 -0.12009 -96.053
270.85 -0.12128 -96.328
270.85 -0.12271 -96.4
270.86 -0.12469 -96.603
270.86 -0.12613 -96.773
270.87 -0.12808 -97.064
270.88 -0.12927 -96.998
270.88 -0.13058 -97.355
270.89 -0.13251 -97.306
270.89 -0.1337 -97.498
270.9 -0.13528 -97.646
270.9 -0.13641 -97.718
270.91 -0.13757 -97.894
270.91 -0.13867 -97.679
270.92 -0.13995 -98.08
270.92 -0.14127 -97.949
270.93 -0.14349 -98.498
270.93 -0.14346 -98.344
270.94 -0.14511 -98.421
270.94 -0.14664 -98.372
270.95 -0.14767 -98.339
270.95 -0.14847 -98.366
270.96 -0.1499 -98.514
270.96 -0.15057 -98.575
270.97 -0.15161 -98.685
270.98 -0.15326 -98.569
270.98 -0.15396 -98.322
270.99 -0.1554 -98.421
270.99 -0.15656 -98.251
271 -0.15662 -98.509
271 -0.1582 -98.174
271.01 -0.15894 -98.558
271.01 -0.15997 -98.52
271.02 -0.16077 -98.492
271.02 -0.16171 -98.498
271.03 -0.16251 -97.949
271.03 -0.16266 -98.454
271.04 -0.16489 -98.097
271.04 -0.16498 -98.207
271.05 -0.16559 -97.96
271.05 -0.16586 -97.795
271.06 -0.16785 -98.053
271.07 -0.16757 -97.861
271.07 -0.16888 -97.767
271.08 -0.16846 -97.57
271.08 -0.16992 -97.251
271.09 -0.17032 -97.767
271.09 -0.17139 -97.267
271.1 -0.17215 -96.855
271.1 -0.17273 -97.322
271.11 -0.17279 -96.894
271.11 -0.17422 -97.125
271.12 -0.17422 -96.438
271.12 -0.1748 -96.619
271.13 -0.17465 -96.251
271.13 -0.17557 -96.581
271.14 -0.17612 -96.163
271.14 -0.17615 -95.68
271.15 -0.17746 -95.889
271.15 -0.17737 -96.29
271.16 -0.17841 -95.268
271.17 -0.17874 -95.62
271.17 -0.17886 -95.273
271.18 -0.17993 -95.691
271.18 -0.18027 -94.971
271.19 -0.18051 -94.471
271.19 -0.18066 -95.054
271.2 -0.18094 -94.537
271.2 -0.18192 -94.471
271.21 -0.1813 -94.823
271.21 -0.18259 -94.301
271.22 -0.18259 -93.95
271.22 -0.18326 -94.378
271.23 -0.18323 -94.164
271.23 -0.18338 -94.114
271.24 -0.18344 -93.961
271.24 -0.18396 -93.439
271.25 -0.18375 -93.823
271.26 -0.18445 -93.873
271.26 -0.18539 -93.318
271.27 -0.1846 -93.131
271.27 -0.18518 -92.653
271.28 -0.18539 -92.9
271.28 -0.18546 -92.648
271.29 -0.18604 -92.604
271.29 -0.18625 -92.653
271.3 -0.186 -92.285
271.3 -0.18661 -92.51
271.31 -0.18665 -92.379
271.31 -0.18692 -91.653
271.32 -0.18671 -91.851
271.32 -0.18723 -91.725
271.33 -0.18692 -92.477
271.33 -0.1868 -91.752
271.34 -0.18738 -91.785
271.34 -0.1882 -91.533
271.35 -0.18747 -90.698
271.36 -0.18832 -91.329
271.36 -0.1882 -91.263
271.37 -0.18839 -91.154
271.37 -0.18808 -91.263
271.38 -0.18887 -90.758
271.38 -0.18878 -90.577
271.39 -0.18839 -90.659
271.39 -0.18851 -91.384
271.4 -0.18884 -90.67
271.4 -0.18893 -90.39
271.41 -0.18857 -90.22
271.41 -0.18927 -90.049
271.42 -0.1889 -89.841
271.42 -0.18939 -89.923
271.43 -0.18954 -90.582
271.43 -0.18936 -90.192
271.44 -0.18973 -90.071
271.45 -0.18893 -90
271.45 -0.18924 -90.187
271.46 -0.18912 -90.187
271.46 -0.18958 -89.984
271.47 -0.18945 -89.687
271.47 -0.1897 -90.264
271.48 -0.18924 -90.22
271.48 -0.1889 -89.429
271.49 -0.18954 -90.461
271.49 -0.18976 -89.39
271.5 -0.19009 -89.863
271.5 -0.18921 -89.725
271.51 -0.18948 -89.643
