Amplitude Error Setpoint: 0.25(V)
Drive Frequency(kHz), Amplitude Error(V), Phase()
268.87 0.030945 150.06
268.88 0.031799 149.19
268.88 0.033051 148.39
268.89 0.034393 147.33
268.89 0.03595 146.29
268.9 0.037079 145.32
268.9 0.037262 144.35
268.91 0.038818 143.33
268.91 0.039581 142.42
268.92 0.040466 141.37
268.92 0.041077 140.52
268.93 0.042084 139.45
268.93 0.042419 138.45
268.94 0.04306 137.49
268.94 0.043457 136.44
268.95 0.043945 135.59
268.95 0.04422 134.6
268.96 0.045349 133.48
268.97 0.044922 132.57
268.97 0.04483 131.59
268.98 0.045135 130.82
268.98 0.044922 129.77
268.99 0.045288 128.82
268.99 0.044495 127.96
269 0.044525 127.05
269 0.044037 126.05
269.01 0.042877 125.23
269.01 0.042603 124.26
269.02 0.041931 123.36
269.02 0.042236 122.51
269.03 0.041565 121.67
269.03 0.04007 120.73
269.04 0.039795 120.05
269.04 0.039398 119
269.05 0.037323 118.28
269.05 0.03653 117.5
269.06 0.036652 116.71
269.07 0.035004 115.86
269.07 0.034241 115.19
269.08 0.032593 114.44
269.08 0.031586 113.63
269.09 0.030823 112.83
269.09 0.029663 112.18
269.1 0.028015 111.45
269.1 0.026855 110.75
269.11 0.025574 110.19
269.11 0.024994 109.36
269.12 0.022858 108.64
269.12 0.022461 108.16
269.13 0.020172 107.47
269.13 0.019257 106.75
269.14 0.018188 106.35
269.14 0.01767 105.66
269.15 0.016083 105.1
269.16 0.014099 104.44
269.16 0.013611 103.94
269.17 0.011902 103.54
269.17 0.0099792 102.99
269.18 0.0095825 102.48
269.18 0.0082092 101.9
269.19 0.0071716 101.5
269.19 0.0057373 101.04
269.2 0.0052185 100.45
269.2 0.00354 100.2
269.21 0.0028076 99.75
269.21 0.0014954 99.13
269.22 0.0005188 98.773
269.22 -0.00024414 98.427
269.23 -0.0021057 98.031
269.23 -0.0031433 97.833
269.24 -0.0045471 97.399
269.24 -0.005188 96.993
269.25 -0.0053101 96.735
269.26 -0.0065308 96.438
269.26 -0.0066528 95.993
269.27 -0.0084229 95.592
269.27 -0.0090332 95.284
269.28 -0.010193 95.043
269.28 -0.010956 94.839
269.29 -0.011963 94.482
269.29 -0.012115 94.103
269.3 -0.013031 93.862
269.3 -0.013123 93.724
269.31 -0.01416 93.417
269.31 -0.014557 93.087
269.32 -0.015076 93.043
269.32 -0.015564 92.769
269.33 -0.015778 92.362
269.33 -0.016144 92.065
269.34 -0.016754 92.016
269.35 -0.017181 91.829
269.35 -0.017181 91.417
269.36 -0.017426 91.351
269.36 -0.018463 91.181
269.37 -0.017914 90.945
269.37 -0.018188 90.818
269.38 -0.018494 90.456
269.38 -0.017975 90.423
269.39 -0.018341 90.154
269.39 -0.017822 90.016
269.4 -0.018555 89.764
269.4 -0.018158 89.676
269.41 -0.017975 89.44
269.41 -0.01828 89.264
269.42 -0.017395 89.193
269.42 -0.017303 88.901
269.43 -0.017761 88.742
269.43 -0.017487 88.489
269.44 -0.016327 88.363
269.45 -0.015961 88.16
269.45 -0.016663 88.011
269.46 -0.0159 87.808
269.46 -0.01535 87.594
269.47 -0.014252 87.336
269.47 -0.013947 87.292
269.48 -0.014099 87.067
269.48 -0.012543 86.754
269.49 -0.01236 86.638
269.49 -0.011414 86.468
269.5 -0.01123 86.248
269.5 -0.010468 85.919
269.51 -0.01004 85.71
269.51 -0.0085754 85.594
269.52 -0.0079651 85.413
269.52 -0.0061646 85.265
269.53 -0.0060425 84.935
269.54 -0.005249 84.743
269.54 -0.0039673 84.501
269.55 -0.0033875 84.128
269.55 -0.0024109 84.139
269.56 -0.0013733 83.82
269.56 -0.00067139 83.524
269.57 0.00057983 83.397
269.57 0.0019531 82.996
269.58 0.0029907 82.776
269.58 0.0036926 82.321
269.59 0.0053711 82.266
269.59 0.0064697 82.035
269.6 0.0074463 81.744
269.6 0.0093994 81.414
269.61 0.01001 81.205
269.61 0.012329 81.013
269.62 0.013092 80.667
269.62 0.013916 80.294
269.63 0.015045 80.046
269.64 0.016266 79.7
269.64 0.018585 79.442
269.65 0.019745 79.107
269.65 0.020508 78.734
269.66 0.023346 78.354
269.66 0.024994 78.036
269.67 0.026398 77.723
269.67 0.026764 77.393
269.68 0.029816 77.113
269.68 0.030914 76.674
269.69 0.033752 76.229
269.69 0.03363 75.828
269.7 0.036865 75.536
269.7 0.037323 75.262
269.71 0.039154 74.745
269.71 0.04126 74.454
269.72 0.04425 74.048
269.73 0.045197 73.68
269.73 0.047119 73.257
269.74 0.049286 72.795
269.74 0.051208 72.411
269.75 0.053284 71.982
269.75 0.056 71.642
269.76 0.056732 71.125
269.76 0.058685 70.664
269.77 0.061646 70.181
269.77 0.063202 69.73
269.78 0.065277 69.274
269.78 0.067657 68.785
269.79 0.069977 68.412
269.79 0.071564 67.857
269.8 0.074402 67.401
269.8 0.075348 66.797
269.81 0.078644 66.341
269.81 0.080231 65.901
269.82 0.083679 65.325
269.83 0.085724 64.863
269.83 0.087677 64.27
269.84 0.090729 63.699
269.84 0.092896 63.21
269.85 0.09436 62.633
269.85 0.097351 62.078
269.86 0.10068 61.639
269.86 0.10202 60.864
269.87 0.10483 60.304
269.87 0.10727 59.821
269.88 0.11075 59.233
269.88 0.11392 58.601
269.89 0.11591 57.942
269.89 0.11856 57.382
269.9 0.12149 56.755
269.9 0.12292 56.041
269.91 0.12656 55.536
269.92 0.12955 54.844
269.92 0.13223 54.091
269.93 0.13574 53.481
269.93 0.1376 52.762
269.94 0.14105 52.081
269.94 0.14368 51.416
269.95 0.14621 50.696
269.95 0.14853 49.966
269.96 0.15173 49.334
269.96 0.15417 48.406
269.97 0.15829 47.774
269.97 0.16046 46.928
269.98 0.16348 46.203
269.98 0.16641 45.379
269.99 0.16821 44.615
269.99 0.17191 43.852
270 0.17471 43.083
270 0.17783 42.155
270.01 0.18051 41.418
270.02 0.18372 40.507
270.02 0.18619 39.71
270.03 0.18924 38.864
270.03 0.19202 37.958
270.04 0.19479 37.101
270.04 0.19742 36.178
270.05 0.20099 35.222
270.05 0.20316 34.338
270.06 0.20605 33.437
270.06 0.20822 32.509
270.07 0.21106 31.591
270.07 0.21362 30.531
270.08 0.21558 29.647
270.08 0.21884 28.597
270.09 0.22076 27.515
270.09 0.22375 26.653
270.1 0.22488 25.675
270.11 0.22729 24.576
270.11 0.22946 23.522
270.12 0.23178 22.533
270.12 0.23352 21.423
270.13 0.23611 20.424
270.13 0.23694 19.402
270.14 0.23871 18.226
270.14 0.24066 17.194
270.15 0.24191 16.106
270.15 0.24411 15.024
270.16 0.24567 13.826
270.16 0.24588 12.843
270.17 0.24783 11.717
270.17 0.24869 10.492
270.18 0.24939 9.3878
270.18 0.2496 8.2397
270.19 0.25046 7.1191
270.19 0.25076 5.8997
270.2 0.2515 4.812
270.21 0.25095 3.6639
270.21 0.25134 2.4884
270.22 0.25107 1.2909
270.22 0.25082 0.076904
270.23 0.25012 -1.0272
270.23 0.24985 -2.2687
270.24 0.24921 -3.4497
270.24 0.2485 -4.6692
270.25 0.24786 -5.8063
270.25 0.24646 -7.0038
270.26 0.245 -8.1409
270.26 0.24438 -9.3109
270.27 0.24313 -10.481
270.27 0.24072 -11.651
270.28 0.23904 -12.92
270.28 0.23782 -14.03
270.29 0.23499 -15.161
270.29 0.2337 -16.315
270.3 0.23123 -17.512
270.31 0.22827 -18.633
270.31 0.22583 -19.803
270.32 0.22403 -20.874
270.32 0.22171 -22.061
270.33 0.21918 -23.329
270.33 0.21536 -24.313
270.34 0.21237 -25.45
270.34 0.20956 -26.631
270.35 0.20676 -27.708
270.35 0.20346 -28.795
270.36 0.20032 -29.954
270.36 0.19687 -30.998
270.37 0.19351 -32.036
270.37 0.19012 -33.102
270.38 0.18604 -34.135
270.38 0.1828 -35.134
270.39 0.18015 -36.348
270.4 0.17673 -37.375
270.4 0.17252 -38.381
270.41 0.16876 -39.364
270.41 0.16562 -40.43
270.42 0.16183 -41.391
270.42 0.15759 -42.407
270.43 0.15433 -43.451
270.43 0.15027 -44.445
270.44 0.14688 -45.417
270.44 0.1424 -46.214
270.45 0.13815 -47.203
270.45 0.13425 -48.214
270.46 0.13104 -49.169
270.46 0.1265 -50.054
270.47 0.12296 -50.878
270.47 0.11884 -51.872
270.48 0.11533 -52.762
270.48 0.11176 -53.685
270.49 0.10709 -54.487
270.5 0.10349 -55.426
270.5 0.099213 -56.266
270.51 0.095764 -57.096
270.51 0.092377 -57.958
270.52 0.088501 -58.854
270.52 0.084503 -59.59
270.53 0.080841 -60.496
270.53 0.076843 -61.276
270.54 0.072723 -62.073
270.54 0.069031 -62.952
270.55 0.065002 -63.649
270.55 0.062256 -64.407
270.56 0.058197 -65.171
270.56 0.054779 -66.055
270.57 0.051147 -66.791
270.57 0.047577 -67.451
270.58 0.043762 -68.318
270.59 0.040466 -68.978
270.59 0.035828 -69.697
270.6 0.033936 -70.362
270.6 0.029907 -71.164
270.61 0.025482 -71.812
270.61 0.0224 -72.499
270.62 0.019135 -73.059
270.62 0.0159 -73.801
270.63 0.012573 -74.696
270.63 0.0095825 -75.141
270.64 0.0063782 -75.888
270.64 0.0025024 -76.547
270.65 -0.00039673 -77.108
270.65 -0.0038452 -77.651
270.66 -0.0064697 -78.25
270.66 -0.0086365 -79.074
270.67 -0.012726 -79.492
270.67 -0.015717 -80.206
270.68 -0.018677 -80.865
270.69 -0.021576 -81.403
270.69 -0.025238 -81.964
270.7 -0.027496 -82.447
270.7 -0.030975 -83.068
270.71 -0.03299 -83.655
270.71 -0.036957 -84.232
270.72 -0.039368 -84.749
270.72 -0.041595 -85.375
270.73 -0.045197 -85.759
270.73 -0.047241 -86.325
270.74 -0.050201 -86.754
270.74 -0.052612 -87.292
270.75 -0.055603 -87.847
270.75 -0.05835 -88.231
270.76 -0.06076 -88.654
270.76 -0.063293 -89.143
270.77 -0.065063 -89.456
270.78 -0.067657 -90.044
270.78 -0.07074 -90.428
270.79 -0.072937 -90.84
270.79 -0.075195 -91.483
270.8 -0.077667 -91.851
270.8 -0.079834 -92.126
270.81 -0.082611 -92.823
270.81 -0.085022 -92.878
270.82 -0.086853 -93.208
270.82 -0.088898 -93.757
270.83 -0.091553 -94.142
270.83 -0.093719 -94.307
270.84 -0.095093 -94.647
270.84 -0.097504 -95.158
270.85 -0.099701 -95.219
270.85 -0.10211 -95.845
270.86 -0.10333 -96.108
270.86 -0.10562 -96.498
270.87 -0.10751 -96.713
270.88 -0.11005 -97.114
270.88 -0.11127 -97.471
270.89 -0.11285 -97.674
270.89 -0.11465 -98.004
270.9 -0.11609 -98.113
270.9 -0.11865 -98.223
270.91 -0.12048 -98.58
270.91 -0.12198 -99.108
270.92 -0.1236 -98.992
270.92 -0.12521 -99.553
270.93 -0.12662 -99.371
270.93 -0.12811 -99.756
270.94 -0.12991 -99.921
270.94 -0.13156 -100.12
270.95 -0.13303 -100.24
270.95 -0.13428 -100.51
270.96 -0.13632 -100.54
270.97 -0.1373 -100.56
270.97 -0.13846 -101.06
270.98 -0.14072 -101.36
270.98 -0.142 -101.28
270.99 -0.14304 -101.32
270.99 -0.14444 -101.82
271 -0.14581 -101.44
271 -0.14706 -101.69
271.01 -0.14865 -102.05
271.01 -0.1496 -101.79
271.02 -0.15073 -101.91
271.02 -0.15225 -102.5
271.03 -0.15359 -102.08
271.03 -0.15503 -102.04
271.04 -0.15555 -102.44
271.04 -0.1571 -102.69
271.05 -0.15768 -102.5
271.05 -0.15875 -102.72
271.06 -0.16049 -102.77
271.07 -0.16199 -102.88
271.07 -0.16214 -102.37
271.08 -0.16367 -102.72
271.08 -0.16415 -102.76
271.09 -0.16495 -102.82
271.09 -0.16629 -103.01
271.1 -0.16733 -102.34
271.1 -0.16888 -103
271.11 -0.16891 -102.26
271.11 -0.16943 -102.47
271.12 -0.17065 -102.37
271.12 -0.17163 -102.55
271.13 -0.17233 -102.35
271.13 -0.17307 -102.69
271.14 -0.17395 -101.98
271.14 -0.1749 -102.22
271.15 -0.17538 -102.01
271.16 -0.17572 -102
271.16 -0.17651 -102.59
271.17 -0.17731 -101.84
271.17 -0.17816 -101.86
271.18 -0.17896 -101.68
271.18 -0.18002 -102.07
271.19 -0.18033 -101.63
271.19 -0.18146 -101.51
271.2 -0.18137 -101.55
271.2 -0.18246 -101.29
271.21 -0.18292 -101.27
271.21 -0.18326 -100.97
271.22 -0.18433 -100.67
271.22 -0.18463 -100.87
271.23 -0.18506 -100.84
271.23 -0.18549 -100.71
271.24 -0.18643 -100.22
271.24 -0.18729 -100.27
271.25 -0.18747 -100.06
271.26 -0.18787 -100.08
271.26 -0.18915 -100.36
271.27 -0.18918 -99.921
271.27 -0.189 -99.789
271.28 -0.19049 -99.344
271.28 -0.19058 -99.542
271.29 -0.19049 -99.349
271.29 -0.19101 -99.003
271.3 -0.1918 -98.888
271.3 -0.19162 -98.63
271.31 -0.19211 -98.223
271.31 -0.19318 -98.47
271.32 -0.19333 -98.355
271.32 -0.19397 -97.696
271.33 -0.19418 -97.91
271.33 -0.19379 -97.938
271.34 -0.19449 -96.751
271.35 -0.19476 -97.289
271.35 -0.19553 -97.141
271.36 -0.19537 -96.718
271.36 -0.19556 -96.493
271.37 -0.19614 -96.938
271.37 -0.19638 -96.762
271.38 -0.19696 -96.021
271.38 -0.19745 -96.306
271.39 -0.19693 -95.949
271.39 -0.19754 -95.669
271.4 -0.19781 -95.257
271.4 -0.19833 -95.999
271.41 -0.19846 -94.658
271.41 -0.19855 -94.807
271.42 -0.1987 -95.284
271.42 -0.19867 -94.581
271.43 -0.19901 -94.191
271.43 -0.19977 -93.73
271.44 -0.1998 -94.114
271.45 -0.2002 -94.125
271.45 -0.20004 -93.576
271.46 -0.20032 -93.675
271.46 -0.20068 -93.521
271.47 -0.20059 -93.768
271.47 -0.20078 -93.345
271.48 -0.20111 -93.235
271.48 -0.20117 -92.291
271.49 -0.20129 -92.664
271.49 -0.20135 -92.203
271.5 -0.20105 -92.032
271.5 -0.20114 -91.78
271.51 -0.2016 -91.472
271.51 -0.202 -91.588
271.52 -0.20169 -91.555
271.52 -0.20193 -91.478
271.53 -0.20145 -91.368
271.54 -0.20248 -90.786
271.54 -0.20267 -91.126
271.55 -0.2027 -90.835
271.55 -0.20306 -90.352
271.56 -0.20251 -90.983
271.56 -0.20316 -91.066
271.57 -0.20239 -90.049
